{
  "resourceType": "Bundle",
  "id": "esempio-ricerca-storico-pi",
  "type": "searchset",
  "timestamp": "2023-01-01T08:32:56.239+01:00",
  "total": 2,
  "entry": [
    {
      "fullUrl": "CarePlan/365db2ec-973c-11ed-a8fc-0242ac120002",
      "resource": {
        "resourceType": "CarePlan",
        "id": "365db2ec-973c-11ed-a8fc-0242ac120002",
        "meta": {
          "lastUpdated": "2023-01-11T08:32:56.239+01:00",
          "profile": [
            "https://fhir.siss.regione.lombardia.it/StructureDefinition/RLCarePlanProgettoIndividuale"
          ],
          "versionId": "1"
        },
        "identifier": [
          {
            "system": "https://fhir.siss.regione.lombardia.it/sid/identificativoUnivocoPI",
            "value": "PI-2023000000001"
          }
        ],
        "status": "active",
        "intent": "order",
        "subject": {
          "reference": "Patient/b7807e00-9745-11ed-a8fc-0242ac120002",
          "display": "Mario Rossi"
        },
        "encounter": {
          "reference": "Encounter/c559333c-974f-11ed-a8fc-0242ac120002",
          "display": "Accesso"
        },
        "period": {
          "start": "2023-01-15T08:32:56.239+01:00"
        },
        "created": "2023-01-11T08:32:56.239+01:00",
        "author": {
          "reference": "Organization/c8f77b34-974f-11ed-a8fc-0242ac120002",
          "display": "ASST DELLA BRIANZA"
        },
        "contributor": [
          {
            "reference": "PractitionerRole/d711fc58-974f-11ed-a8fc-0242ac120002",
            "display": "Infermiere"
          }
        ],
        "addresses": [
          {
            "reference": "Condition/e243606c-974f-11ed-a8fc-0242ac120002",
            "display": "Patologia Primaria"
          },
          {
            "reference": "Condition/e028bc4c-b134-11ed-afa1-0242ac120002",
            "display": "Patologia Secondara"
          }
        ],
        "supportingInfo": [
          {
            "reference": "Observation/bnm18194-974f-11ed-a8fc-0242ac120002",
            "display": "Esito Valutazione"
          }
        ],
        "goal": [
          {
            "reference": "Goal/eaa18194-974f-11ed-a8fc-0242ac120002",
            "display": "Obiettivi Salute"
          }
        ],
        "activity": [
          {
            "reference": {
              "reference": "MedicationRequest/088c489c-9750-11ed-a8fc-0242ac120002",
              "display": "Terapia farmacologica"
            }
          },
          {
            "reference": {
              "reference": "ServiceRequest/14aec1c2-9750-11ed-a8fc-0242ac120002",
              "display": "Servizi Socio Assistenziali"
            }
          }
        ],
        "note": [
          {
            "text": "Monitorare il soddisfacimento dell'obiettivo di salute almeno una volta al mese"
          }
        ],
        "extension": [
          {
            "url": "https://fhir.siss.regione.lombardia.it/StructureDefinition/RLCarePlanVersionePAI",
            "valueUnsignedInt": "01"
          }
        ]
      },
      "search": {
        "mode": "match"
      }
    },
    {
      "fullUrl": "CarePlan/445db2ec-973c-11ed-a8fc-0242ac120002",
      "resource": {
        "resourceType": "CarePlan",
        "id": "445db2ec-973c-11ed-a8fc-0242ac120002",
        "meta": {
          "lastUpdated": "2023-01-01T08:32:56.239+01:00",
          "profile": [
            "https://fhir.siss.regione.lombardia.it/StructureDefinition/RLCarePlanProgettoIndividuale"
          ],
          "versionId": "1"
        },
        "identifier": [
          {
            "system": "https://fhir.siss.regione.lombardia.it/sid/identificativoUnivocoPI",
            "value": "PI-2022000000001"
          }
        ],
        "status": "completed",
        "intent": "order",
        "subject": {
          "reference": "Patient/b7807e00-9745-11ed-a8fc-0242ac120002",
          "display": "Mario Rossi"
        },
        "encounter": {
          "reference": "Encounter/c559333c-974f-11ed-a8fc-0242ac120002",
          "display": "Accesso"
        },
        "period": {
          "start": "2023-01-15T08:32:56.239+01:00"
        },
        "created": "2022-11-11T08:32:56.239+01:00",
        "author": {
          "reference": "Organization/c8f77b34-974f-11ed-a8fc-0242ac120002",
          "display": "ASST DELLA BRIANZA"
        },
        "contributor": [
          {
            "reference": "PractitionerRole/d711fc58-974f-11ed-a8fc-0242ac120002",
            "display": "Infermiere"
          }
        ],
        "addresses": [
          {
            "reference": "Condition/e243606c-974f-11ed-a8fc-0242ac120002",
            "display": "Patologia Primaria"
          }
        ],
        "supportingInfo": [
          {
            "reference": "Observation/bnm18194-974f-11ed-a8fc-0242ac120002",
            "display": "Esito Valutazione"
          }
        ],
        "goal": [
          {
            "reference": "Goal/128d21e6-b360-11ed-afa1-0242ac120002",
            "display": "Obiettivi Salute"
          }
        ],
        "activity": [
          {
            "reference": [
              {
                "reference": "ServiceRequest/14aec1c2-9750-11ed-a8fc-0242ac120002",
                "display": "Servizi Socio Assistenziali"
              }
            ]
          }
        ],
        "note": [
          {
            "text": "Monitorare il soddisfacimento dell'obiettivo di salute almeno una volta al mese"
          }
        ],
        "extension": [
          {
            "url": "https://fhir.siss.regione.lombardia.it/StructureDefinition/RLCarePlanVersionePAI",
            "valueUnsignedInt": "01"
          }
        ]
      },
      "search": {
        "mode": "match"
      }
    },
    {
      "fullUrl": "Patient/b7807e00-9745-11ed-a8fc-0242ac120002",
      "resource": {
        "resourceType": "Patient",
        "id": "b7807e00-9745-11ed-a8fc-0242ac120002",
        "meta": {
          "lastUpdated": "2023-01-11T08:32:56.239+01:00",
          "profile": [
            "https://fhir.siss.regione.lombardia.it/StructureDefinition/RLPatientCittadino"
          ],
          "versionId": "1"
        },
        "identifier": [
          {
            "system": "http://hl7.it/sid/codiceFiscale",
            "value": "RSSMRA80A01F205X"
          }
        ],
        "active": true,
        "name": [
          {
            "family": "Rossi",
            "given": [
              "Mario"
            ]
          }
        ],
        "gender": "male",
        "birthDate": "1980-01-01",
        "address": [
          {
            "use": "billing",
            "city": "015146"
          }
        ],
        "maritalStatus": {
          "coding": [
            {
              "system": "https://fhir.siss.regione.lombardia.it/ValueSet/SIAD-StatoCivile",
              "code": "2",
              "display": "Coniugato/a"
            }
          ]
        },
        "generalPractitioner": {
          "reference": "PractitionerRole/0bfe5406-9751-11ed-a8fc-0242ac120002",
          "display": "MMG"
        },
        "extension": [
          {
            "url": "https://fhir.siss.regione.lombardia.it/StructureDefinition/RLPatientCittadinanza",
            "valueCode": "ITA"
          },
          {
            "url": "https://fhir.siss.regione.lombardia.it/StructureDefinition/RLPatientTitoloDiStudio",
            "valueCodeableConcept": {
              "coding": [
                {
                  "system": "https://fhir.siss.regione.lombardia.it/ValueSet/SIAD-TitoloStudio",
                  "code": "6",
                  "display": "Laurea"
                }
              ]
            }
          },
          {
            "url": "https://fhir.siss.regione.lombardia.it/StructureDefinition/RLPatientPosizioneDellaProfessione",
            "valueCodeableConcept": {
              "coding": [
                {
                  "system": "https://fhir.siss.regione.lombardia.it/ValueSet/SIAD-PosizioneProfessione",
                  "code": "01",
                  "display": "imprenditore"
                }
              ]
            }
          },
          {
            "url": "https://fhir.siss.regione.lombardia.it/StructureDefinition/RLPatientSituazionePensionistica",
            "valueCodeableConcept": {
              "coding": [
                {
                  "system": "https://fhir.siss.regione.lombardia.it/ValueSet/SIAD-SituazionePensionistica",
                  "code": "5",
                  "display": "Invalidità"
                }
              ]
            }
          },
          {
            "url": "https://fhir.siss.regione.lombardia.it/StructureDefinition/RLPatientLuogoDiNascita",
            "valueCode": "015146"
          },
          {
            "url": "https://fhir.siss.regione.lombardia.it/StructureDefinition/RLPatientATSResidenza",
            "valueCode": "030324"
          },
          {
            "url": "https://fhir.siss.regione.lombardia.it/StructureDefinition/RLPatientTipologiaCittadino",
            "valueCodeableConcept": {
              "coding": [
                {
                  "system": "https://fhir.siss.regione.lombardia.it/ValueSet/SIAD-TipologiaPaziente",
                  "code": "1",
                  "display": "Paziente ordinario: utenza tipica"
                }
              ]
            }
          }
        ]
      },
      "search": {
        "mode": "include"
      }
    },
    {
      "fullUrl": "MedicationRequest/088c489c-9750-11ed-a8fc-0242ac120002",
      "resource": {
        "resourceType": "MedicationRequest",
        "id": "088c489c-9750-11ed-a8fc-0242ac120002",
        "meta": {
          "lastUpdated": "2023-01-11T08:32:56.239+01:00",
          "profile": [
            "https://fhir.siss.regione.lombardia.it/StructureDefinition/RLMedicationRequestTerapiaFarmacologica"
          ],
          "versionId": "1"
        },
        "status": "active",
        "intent": "order",
        "medicationCodeableConcept": {
          "coding": [
            {
              "system": "https://fhir.siss.regione.lombardia.it/ValueSet/DDC-Farmaco",
              "code": "027224031",
              "display": "CLEVIAN*GEL 50 G 1%"
            }
          ]
        },
        "subject": {
          "reference": "Patient/b7807e00-9745-11ed-a8fc-0242ac120002",
          "display": "Mario Rossi"
        },
        "basedOn": [
          {
            "reference": "CarePlan/365db2ec-973c-11ed-a8fc-0242ac120002",
            "display": "PI-2023000000001"
          }
        ],
        "note": [
          {
            "text": "Rivalutare mensilmente se prorogare la terapia"
          }
        ],
        "dosageInstruction": [
          {
            "timing": {
              "repeat": {
                "boundsPeriod": {
                  "start": "2023-01-21T08:32:56.239+01:00",
                  "end": "2023-03-21T08:32:56.239+01:00"
                },
                "frequency": 1,
                "period": 1,
                "periodUnit": "d"
              }
            },
            "route": {
              "coding": [
                {
                  "system": "http://snomed.info/sct",
                  "code": "26643006",
                  "display": "Oral Route"
                }
              ]
            },
            "doseAndRate": [
              {
                "doseQuantity": {
                  "value": 2,
                  "unit": "TAB",
                  "system": "http://terminology.hl7.org/CodeSystem/v3-orderableDrugForm"
                }
              }
            ]
          }
        ],
        "extension": [
          {
            "url": "https://fhir.siss.regione.lombardia.it/StructureDefinition/RLMedicationRequestConsegnaPaziente",
            "valueBoolean": true
          }
        ]
      },
      "search": {
        "mode": "include"
      }
    },
    {
      "fullUrl": "ServiceRequest/14aec1c2-9750-11ed-a8fc-0242ac120002",
      "resource": {
        "resourceType": "ServiceRequest",
        "id": "14aec1c2-9750-11ed-a8fc-0242ac120002",
        "meta": {
          "lastUpdated": "2023-01-11T08:32:56.239+01:00",
          "profile": [
            "https://fhir.siss.regione.lombardia.it/StructureDefinition/RLServiceRequestServiziSocioAssistenziali"
          ],
          "versionId": "1"
        },
        "identifier": [
          {
            "system": "https://fhir.siss.regione.lombardia.it/sid/codiceIdentificativoServizioSocioAssistenziale",
            "value": "2023000021"
          }
        ],
        "basedOn": [
          {
            "reference": "CarePlan/365db2ec-973c-11ed-a8fc-0242ac120002",
            "display": "PI-2023000000001"
          }
        ],
        "status": "active",
        "intent": "order",
        "code": {
          "coding": [
            {
              "system": "https://fhir.siss.regione.lombardia.it/ValueSet/DDC-DescL2",
              "code": "C-DOM",
              "display": "CURE DOMICILIARI"
            }
          ]
        },
        "quantityQuantity": {
          "value": 18
        },
        "subject": {
          "reference": "Patient/b7807e00-9745-11ed-a8fc-0242ac120002",
          "display": "Mario Rossi"
        },
        "occurrencePeriod": {
          "start": "2023-02-01T08:32:56.239+01:00",
          "end": "2023-04-01T08:32:56.239+01:00"
        },
        "performer": [
          {
            "reference": "Organization/56a3e16e-97e3-11ed-a8fc-0242ac120002",
            "display": "FONDAZIONE MADDALENA GRASSI"
          }
        ],
        "reasonCode": [
          {
            "coding": [
              {
                "system": "https://fhir.siss.regione.lombardia.it/ValueSet/SGDT-PercorsiCDom",
                "code": "PERCDOM02",
                "display": "Cure Domiciliari Base - Prestazionale Generico"
              }
            ]
          }
        ],
        "note": [
          {
            "text": "Presa in carico confermata dall'ente"
          }
        ],
        "extension": [
          {
            "url": "https://fhir.siss.regione.lombardia.it/StructureDefinition/RLServiceRequestSoggettoProponentePIC",
            "valueCodeableConcept": {
              "coding": [
                {
                  "system": "https://fhir.siss.regione.lombardia.it/ValueSet/SIAD-ProponentePIC",
                  "code": "2",
                  "display": "MMG / PLS"
                }
              ]
            }
          },
          {
            "url": "https://fhir.siss.regione.lombardia.it/StructureDefinition/RLServiceRequestCausaleDimissione",
            "valueCodeableConcept": {
              "coding": [
                {
                  "system": "https://fhir.siss.regione.lombardia.it/ValueSet/SIAD-CausaleDimissione",
                  "code": "01",
                  "display": "Completamento del programma assistenziale"
                }
              ]
            }
          },
          {
            "url": "https://fhir.siss.regione.lombardia.it/StructureDefinition/RLServiceRequestDataDimissione",
            "valueDateTime": "2023-03-30T08:32:56.239+01:00"
          }
        ]
      },
      "search": {
        "mode": "include"
      }
    },
    {
      "fullUrl": "Encounter/c559333c-974f-11ed-a8fc-0242ac120002",
      "resource": {
        "resourceType": "Encounter",
        "id": "c559333c-974f-11ed-a8fc-0242ac120002",
        "meta": {
          "lastUpdated": "2023-01-11T08:32:56.239+01:00",
          "profile": [
            "https://fhir.siss.regione.lombardia.it/StructureDefinition/RLEncounterAccesso"
          ],
          "versionId": "1"
        },
        "identifier": [
          {
            "system": "https://fhir.siss.regione.lombardia.it/sid/identificativoUnivocoAccesso",
            "value": "HC40-ENLIST-SVIL.bff1913c-e45f-d212-baf5-e4182fa06238"
          }
        ],
        "status": "in-progress",
        "class": {
          "system": "https://fhir.siss.regione.lombardia.it/ValueSet/SGDT-TipologiaAccesso",
          "code": "ACCSS",
          "display": "Socio-sanitario"
        },
        "subject": {
          "reference": "Patient/e06086d8-a958-11ed-afa1-0242ac120002",
          "display": "Mario Rossi"
        },
        "period": {
          "start": "2023-01-15T08:32:56.239+01:00"
        },
        "reasonCode": [
          {
            "coding": [
              {
                "system": "https://fhir.siss.regione.lombardia.it/ValueSet/SGDT-MotivoSegnalazione",
                "code": "02",
                "display": "Attivazione Cure Domiciliari (ADI)"
              }
            ]
          }
        ],
        "serviceProvider": {
          "reference": "Organization/e5002d24-a958-11ed-afa1-0242ac120002",
          "display": "ASST DELLA BRIANZA"
        }
      },
      "search": {
        "mode": "include"
      }
    },
    {
      "fullUrl": "Organization/c8f77b34-974f-11ed-a8fc-0242ac120002",
      "resource": {
        "resourceType": "Organization",
        "id": "c8f77b34-974f-11ed-a8fc-0242ac120002",
        "meta": {
          "lastUpdated": "2023-01-11T08:32:56.239+01:00",
          "profile": [
            "https://fhir.siss.regione.lombardia.it/StructureDefinition/RLOrganizationL1"
          ]
        },
        "identifier": [
          {
            "system": "https://fhir.siss.regione.lombardia.it/sid/codiceIdentificativoEnte",
            "value": "030717"
          },
          {
            "system": "http://hl7.it/sid/codiceFiscale",
            "value": "09314320962"
          }
        ],
        "type": [
          {
            "coding": [
              {
                "system": "https://fhir.siss.regione.lombardia.it/ValueSet/DDC-DescL1",
                "code": "ASST",
                "display": "Istituto di Ricovero e Cura a Carattere Scientifico di diritto pubblico / Azienda Socio Sanitaria Territoriale"
              }
            ]
          }
        ],
        "name": "ASST DELLA BRIANZA",
        "telecom": [
          {
            "system": "phone",
            "value": "039 66541"
          },
          {
            "system": "email",
            "value": "protocollo@pec.asst-brianza.it"
          },
          {
            "system": "fax",
            "value": "039 66541"
          },
          {
            "system": "url",
            "value": "https://www.asst-brianza.it/web/"
          }
        ],
        "address": [
          {
            "use": "work",
            "type": "physical",
            "line": [
              "Via Santi Cosma e Damiano, 10"
            ],
            "district": "MB",
            "state": "LOMBARDIA",
            "postalCode": "20871",
            "extension": [
              {
                "url": "https://fhir.siss.regione.lombardia.it/StructureDefinition/RLOrganizationAddressIstatCode",
                "valueString": "108050"
              },
              {
                "url": "https://fhir.siss.regione.lombardia.it/StructureDefinition/RLOrganizationAddressDistrettoCode",
                "valueCodeableConcept": {
                  "coding": [
                    {
                      "system": "https://fhir.siss.regione.lombardia.it/CodeSystem/CodiceDistretto",
                      "code": "TBD"
                    }
                  ]
                }
              }
            ]
          }
        ],
        "extension": [
          {
            "url": "https://fhir.siss.regione.lombardia.it/StructureDefinition/RLOrganizationDataCostituzione",
            "valueDate": "2016-01-01"
          },
          {
            "url": "https://fhir.siss.regione.lombardia.it/StructureDefinition/RLOrganizationDataCessazione",
            "valueDate": "2099-02-11"
          },
          {
            "url": "https://fhir.siss.regione.lombardia.it/StructureDefinition/RLOrganizationDataInsert",
            "valueDate": "2016-02-11"
          },
          {
            "url": "https://fhir.siss.regione.lombardia.it/StructureDefinition/RLOrganizationDataUpdate",
            "valueDate": "2021-01-27"
          },
          {
            "url": "https://fhir.siss.regione.lombardia.it/StructureDefinition/RLOrganizationDataInizioValidita",
            "valueDate": "2015-01-27"
          },
          {
            "url": "https://fhir.siss.regione.lombardia.it/StructureDefinition/RLOrganizationDataFineValidita",
            "valueDate": "2035-01-14"
          }
        ]
      },
      "search": {
        "mode": "include"
      }
    },
    {
      "fullUrl": "PractitionerRole/d711fc58-974f-11ed-a8fc-0242ac120002",
      "resource": {
        "resourceType": "PractitionerRole",
        "id": "d711fc58-974f-11ed-a8fc-0242ac120002",
        "meta": {
          "lastUpdated": "2023-01-11T08:32:56.239+01:00",
          "profile": [
            "https://fhir.siss.regione.lombardia.it/StructureDefinition/RLPractitionerRoleProfessionistaSanitario"
          ],
          "versionId": "1"
        },
        "period": {
          "start": "2012-01-01T08:32:56.239+01:00",
          "end": "2023-03-31T08:32:56.239+01:00"
        },
        "practitioner": {
          "reference": "Practitioner/3a14db34-a959-11ed-afa1-0242ac120002",
          "display": "Luca Verdi"
        },
        "organization": {
          "reference": "Organization/52b1a05a-a959-11ed-afa1-0242ac120002",
          "display": "ASST DELLA BRIANZA"
        },
        "code": [
          {
            "coding": [
              {
                "system": "https://fhir.siss.regione.lombardia.it/ValueSet/SGDT-QualificaProfessionistaSanitario",
                "code": "PROFSAN03",
                "display": "Infermiere"
              }
            ]
          }
        ]
      },
      "search": {
        "mode": "include"
      }
    },
    {
      "fullUrl": "Condition/e243606c-974f-11ed-a8fc-0242ac120002",
      "resource": {
        "resourceType": "Condition",
        "id": "e243606c-974f-11ed-a8fc-0242ac120002",
        "meta": {
          "lastUpdated": "2023-01-11T08:32:56.239+01:00",
          "profile": [
            "https://fhir.siss.regione.lombardia.it/StructureDefinition/RLConditionPatologiaPrimariaSecondariaUlteriore"
          ],
          "versionId": "1"
        },
        "category": [
          {
            "coding": [
              {
                "system": "https://fhir.siss.regione.lombardia.it/ValueSet/SGDT-TipologiaProblemaSalute",
                "code": "1",
                "display": "Patologia primaria"
              }
            ]
          }
        ],
        "code": {
          "coding": [
            {
              "system": "http://terminology.hl7.org/ValueSet/v3-DiagnosisICD9CM",
              "code": "V17.7",
              "display": "Artrite"
            }
          ]
        },
        "subject": {
          "reference": "Patient/b7807e00-9745-11ed-a8fc-0242ac120002",
          "display": "Mario Rossi"
        },
        "recordedDate": "2023-01-15"
      },
      "search": {
        "mode": "include"
      }
    },
    {
      "fullUrl": "Condition/e028bc4c-b134-11ed-afa1-0242ac120002",
      "resource": {
        "resourceType": "Condition",
        "id": "e028bc4c-b134-11ed-afa1-0242ac120002",
        "meta": {
          "lastUpdated": "2023-01-11T08:32:56.239+01:00",
          "profile": [
            "https://fhir.siss.regione.lombardia.it/StructureDefinition/RLConditionPatologiaPrimariaSecondariaUlteriore"
          ],
          "versionId": "1"
        },
        "category": [
          {
            "coding": [
              {
                "system": "https://fhir.siss.regione.lombardia.it/ValueSet/SGDT-TipologiaProblemaSalute",
                "code": "2",
                "display": "Patologia secondaria"
              }
            ]
          }
        ],
        "code": {
          "coding": [
            {
              "system": "http://terminology.hl7.org/ValueSet/v3-DiagnosisICD9CM",
              "code": "V18.0",
              "display": "Diabete mellito"
            }
          ]
        },
        "subject": {
          "reference": "Patient/b7807e00-9745-11ed-a8fc-0242ac120002",
          "display": "Mario Rossi"
        },
        "recordedDate": "2023-01-15"
      },
      "search": {
        "mode": "include"
      }
    },
    {
      "fullUrl": "Observation/bnm18194-974f-11ed-a8fc-0242ac120002",
      "resource": {
        "resourceType": "Observation",
        "id": "bnm18194-974f-11ed-a8fc-0242ac120002",
        "meta": {
          "lastUpdated": "2023-01-11T08:32:56.239+01:00",
          "profile": [
            "https://fhir.siss.regione.lombardia.it/StructureDefinition/RLObservationEsitoValutazione"
          ],
          "versionId": "1"
        },
        "status": "registered",
        "code": {
          "coding": [
            {
              "system": "https://fhir.siss.regione.lombardia.it/ValueSet/SGDT-Valutazione",
              "code": "VAL1",
              "display": "Scheda Triage"
            }
          ]
        },
        "subject": {
          "reference": "Patient/c2079ade-989e-11ed-a8fc-0242ac120002",
          "display": "Mario Rossi"
        },
        "effectiveDateTime": "2023-01-15T08:32:56.239+01:00",
        "performer": [
          {
            "reference": "PractitionerRole/d252b662-989e-11ed-a8fc-0242ac120002",
            "display": "Infermiere"
          }
        ],
        "valueInteger": 5,
        "derivedFrom": [
          {
            "reference": "QuestionnaireResponse/d3541270-9814-11ed-a8fc-0242ac120002",
            "display": "Scheda Triage"
          }
        ]
      },
      "search": {
        "mode": "include"
      }
    },
    {
      "fullUrl": "Goal/eaa18194-974f-11ed-a8fc-0242ac120002",
      "resource": {
        "resourceType": "Goal",
        "id": "eaa18194-974f-11ed-a8fc-0242ac120002",
        "meta": {
          "lastUpdated": "2023-01-11T08:32:56.239+01:00",
          "profile": [
            "https://fhir.siss.regione.lombardia.it/StructureDefinition/RLGoalObiettiviSalute"
          ],
          "versionId": "1"
        },
        "lifecycleStatus": "planned",
        "description": {
          "coding": [
            {
              "system": "https://fhir.siss.regione.lombardia.it/ValueSet/SGDT-ObiettiviSalute",
              "code": "04",
              "display": "Controllo dell'evoluzione della malattia"
            }
          ]
        },
        "subject": {
          "reference": "Patient/b7807e00-9745-11ed-a8fc-0242ac120002",
          "display": "Mario Rossi"
        }
      },
      "search": {
        "mode": "include"
      }
    },
    {
      "fullUrl": "Goal/128d21e6-b360-11ed-afa1-0242ac120002",
      "resource": {
        "resourceType": "Goal",
        "id": "128d21e6-b360-11ed-afa1-0242ac120002",
        "meta": {
          "lastUpdated": "2023-01-01T08:32:56.239+01:00",
          "profile": [
            "https://fhir.siss.regione.lombardia.it/StructureDefinition/RLGoalObiettiviSalute"
          ],
          "versionId": "1"
        },
        "lifecycleStatus": "planned",
        "description": {
          "coding": [
            {
              "system": "https://fhir.siss.regione.lombardia.it/ValueSet/SGDT-ObiettiviSalute",
              "code": "05",
              "display": "Aderenza alla terapia"
            }
          ]
        },
        "subject": {
          "reference": "Patient/b7807e00-9745-11ed-a8fc-0242ac120002",
          "display": "Mario Rossi"
        }
      },
      "search": {
        "mode": "include"
      }
    }
  ]
}