{
	"resourceType": "Bundle",
	"id": "esempio-ricerca-storico-pi",
	"type": "searchset",
	"timestamp": "2023-01-01T10:36:03Z",
	"total": 2,
	"entry": [
		{
			"fullUrl": "CarePlan/365db2ec-973c-11ed-a8fc-0242ac120002",
			"resource": {
				"resourceType": "CarePlan",
				"id": "365db2ec-973c-11ed-a8fc-0242ac120002",
				"meta": {
					"lastUpdated": "2023-01-01T10:36:03Z",
					"profile": [
						"https://fhir.siss.regione.lombardia.it/StructureDefinition/RLCarePlanProgettoIndividuale"
					],
					"versionId": "1"
				},
				"identifier": [
					{
						"value": "PI2023000000001"
					}
				],
				"status": "active",
				"intent": "order",
				"subject": {
					"reference": "Patient/b7807e00-9745-11ed-a8fc-0242ac120002",
					"display": "Mario Rossi"
				},
				"encounter": {
					"reference": "Encounter/c559333c-974f-11ed-a8fc-0242ac120002",
					"display": "Accesso"
				},
				"period": {
					"start": "2022-06-20",
					"end": "2023-02-20"
				},
				"created": "2022-06-20",
				"author": {
					"reference": "Organization/c8f77b34-974f-11ed-a8fc-0242ac120002",
					"display": "ASST DELLA BRIANZA"
				},
				"contributor": [
					{
						"reference": "PractitionerRole/d711fc58-974f-11ed-a8fc-0242ac120002",
						"display": "Professionista Sanitario"
					}
				],
				"addresses": [
					{
						"reference": "Condition/e243606c-974f-11ed-a8fc-0242ac120002",
						"display": "Patologia Primaria"
					}
				],
				"supportingInfo": [
					{
						"reference": "Observation/bnm18194-974f-11ed-a8fc-0242ac120002",
						"display": "Esito Valutazione"
					}
				],
				"goal": [
					{
						"reference": "Goal/eaa18194-974f-11ed-a8fc-0242ac120002",
						"display": "Obiettivi Salute"
					}
				],
				"activity": [
					{
						"reference": [
							{
								"reference": "ServiceRequest/f1471fc2-974f-11ed-a8fc-0242ac120002",
								"display": "Prestazioni specialistiche"
							}
						]
					},
					{
						"reference": [
							{
								"reference": "MedicationRequest/fd5e5398-974f-11ed-a8fc-0242ac120002",
								"display": "Ossigenoterapia"
							}
						]
					},
					{
						"reference": [
							{
								"reference": "MedicationRequest/088c489c-9750-11ed-a8fc-0242ac120002",
								"display": "Terapia farmacologica"
							}
						]
					},
					{
						"reference": [
							{
								"reference": "ServiceRequest/14aec1c2-9750-11ed-a8fc-0242ac120002",
								"display": "Servizi Socio Assistenziali"
							}
						]
					},
					{
						"reference": [
							{
								"reference": "ServiceRequest/22a7ca4e-9750-11ed-a8fc-0242ac120002",
								"display": "Intervento Educazionale"
							}
						]
					},
					{
						"reference": [
							{
								"reference": "DeviceRequest/2c9f4810-9750-11ed-a8fc-0242ac120002",
								"display": "Protesi Ausili"
							}
						]
					},
					{
						"reference": [
							{
								"reference": "ServiceRequest/9f9d22e4-9cbc-11ed-a8fc-0242ac120002",
								"display": "Prestazioni Infermieristiche"
							}
						]
					}
				],
				"note": [
					{
						"text": "Questo PAI ha come obiettivo il controllo dell'evoluzione della malattia"
					}
				],
				"extension": [
					{
						"url": "https://fhir.siss.regione.lombardia.it/StructureDefinition/RLCarePlanVersionePAI",
						"valueUnsignedInt": "01"
					}
				]
			}
		},
		{
			"fullUrl": "CarePlan/445db2ec-973c-11ed-a8fc-0242ac120002",
			"resource": {
				"resourceType": "CarePlan",
				"id": "445db2ec-973c-11ed-a8fc-0242ac120002",
				"meta": {
					"lastUpdated": "2023-01-01T10:36:03Z",
					"profile": [
						"https://fhir.siss.regione.lombardia.it/StructureDefinition/RLCarePlanProgettoIndividuale"
					],
					"versionId": "1"
				},
				"identifier": [
					{
						"value": "PI2022000011001"
					}
				],
				"status": "completed",
				"intent": "order",
				"subject": {
					"reference": "Patient/b7807e00-9745-11ed-a8fc-0242ac120002",
					"display": "Mario Rossi"
				},
				"encounter": {
					"reference": "Encounter/70eb0e00-ae07-11ed-afa1-0242ac120002",
					"display": "Accesso"
				},
				"period": {
					"start": "2020-06-20",
					"end": "2022-02-20"
				},
				"created": "2020-06-20",
				"author": {
					"reference": "Organization/c8f77b34-974f-11ed-a8fc-0242ac120002",
					"display": "ASST DELLA BRIANZA"
				},
				"contributor": [
					{
						"reference": "PractitionerRole/d711fc58-974f-11ed-a8fc-0242ac120002",
						"display": "Professionista Sanitario"
					}
				],
				"addresses": [
					{
						"reference": "Condition/e243606c-974f-11ed-a8fc-0242ac120002",
						"display": "Patologia Primaria"
					}
				],
				"supportingInfo": [
					{
						"reference": "Observation/bnm18194-974f-11ed-a8fc-0242ac120002",
						"display": "Esito Valutazione"
					}
				],
				"goal": [
					{
						"reference": "Goal/eaa18194-974f-11ed-a8fc-0242ac120002",
						"display": "Obiettivi Salute"
					}
				],
				"activity": [
					{
						"reference": [
							{
								"reference": "ServiceRequest/f1471fc2-974f-11ed-a8fc-0242ac120002",
								"display": "Prestazioni specialistiche"
							}
						]
					},
					{
						"reference": [
							{
								"reference": "MedicationRequest/fd5e5398-974f-11ed-a8fc-0242ac120002",
								"display": "Ossigenoterapia"
							}
						]
					},
					{
						"reference": [
							{
								"reference": "MedicationRequest/088c489c-9750-11ed-a8fc-0242ac120002",
								"display": "Terapia farmacologica"
							}
						]
					},
					{
						"reference": [
							{
								"reference": "ServiceRequest/14aec1c2-9750-11ed-a8fc-0242ac120002",
								"display": "Servizi Socio Assistenziali"
							}
						]
					},
					{
						"reference": [
							{
								"reference": "ServiceRequest/22a7ca4e-9750-11ed-a8fc-0242ac120002",
								"display": "Intervento Educazionale"
							}
						]
					},
					{
						"reference": [
							{
								"reference": "DeviceRequest/2c9f4810-9750-11ed-a8fc-0242ac120002",
								"display": "Protesi Ausili"
							}
						]
					},
					{
						"reference": [
							{
								"reference": "ServiceRequest/9f9d22e4-9cbc-11ed-a8fc-0242ac120002",
								"display": "Prestazioni Infermieristiche"
							}
						]
					}
				],
				"note": [
					{
						"text": "Questo PAI ha come obiettivo il controllo dell'evoluzione della malattia"
					}
				],
				"extension": [
					{
						"url": "https://fhir.siss.regione.lombardia.it/StructureDefinition/RLCarePlanVersionePAI",
						"valueUnsignedInt": "01"
					}
				]
			}
		},
		{
			"fullUrl": "Patient/b7807e00-9745-11ed-a8fc-0242ac120002",
			"resource": {
				"resourceType": "Patient",
				"id": "b7807e00-9745-11ed-a8fc-0242ac120002",
				"meta": {
					"lastUpdated": "2023-01-01T10:36:03Z",
					"profile": [
						"https://fhir.siss.regione.lombardia.it/StructureDefinition/RLPatientCittadino"
					],
					"versionId": "1"
				},
				"identifier": [
					{
						"system": "http://hl7.it/sid/codiceFiscale",
						"value": "RSSMRA80A01F205X"
					}
				],
				"active": true,
				"name": [
					{
						"family": "Rossi",
						"given": [
							"Mario"
						]
					}
				],
				"gender": "male",
				"birthDate": "1980-01-01",
				"address": [
					{
						"use": "home",
						"city": "015146",
						"country": "IT"
					}
				],
				"maritalStatus": {
					"coding": [
						{
							"system": "https://fhir.siss.regione.lombardia.it/ValueSet/SIAD-StatoCivile",
							"code": "2",
							"display": "Coniugato/a"
						}
					]
				},
				"generalPractitioner": {
					"reference": "PractitionerRole/0bfe5406-9751-11ed-a8fc-0242ac120002",
					"display": "Medico Prescrittore"
				},
				"extension": [
					{
						"url": "https://fhir.siss.regione.lombardia.it/StructureDefinition/RLPatientCittadinanza",
						"valueCode": "ITA"
					},
					{
						"url": "https://fhir.siss.regione.lombardia.it/StructureDefinition/RLPatientTitoloDiStudio",
						"valueCodeableConcept": {
							"coding": [
								{
									"system": "https://fhir.siss.regione.lombardia.it/ValueSet/SIAD-TitoloStudio",
									"code": "6",
									"display": "Laurea"
								}
							]
						}
					},
					{
						"url": "https://fhir.siss.regione.lombardia.it/StructureDefinition/RLPatientPosizioneDellaProfessione",
						"valueCodeableConcept": {
							"coding": [
								{
									"system": "https://fhir.siss.regione.lombardia.it/ValueSet/SIAD-PosizioneProfessione",
									"code": "01",
									"display": "imprenditore"
								}
							]
						}
					},
					{
						"url": "https://fhir.siss.regione.lombardia.it/StructureDefinition/RLPatientSituazionePensionistica",
						"valueCodeableConcept": {
							"coding": [
								{
									"system": "https://fhir.siss.regione.lombardia.it/ValueSet/SIAD-SituazionePensionistica",
									"code": "5",
									"display": "Invalidità"
								}
							]
						}
					},
					{
						"url": "https://fhir.siss.regione.lombardia.it/StructureDefinition/RLPatientLuogoDiNascita",
						"valueCode": "015146"
					},
					{
						"url": "https://fhir.siss.regione.lombardia.it/StructureDefinition/RLPatientATSResidenza",
						"valueCode": "030321"
					},
					{
						"url": "https://fhir.siss.regione.lombardia.it/StructureDefinition/RLPatientTipologiaCittadino",
						"valueCodeableConcept": {
							"coding": [
								{
									"system": "https://fhir.siss.regione.lombardia.it/ValueSet/SIAD-TipologiaPaziente",
									"code": "1",
									"display": "Paziente ordinario: utenza tipica"
								}
							]
						}
					}
				]
			}
		},
		{
			"fullUrl": "ServiceRequest/f1471fc2-974f-11ed-a8fc-0242ac120002",
			"resource": {
				"resourceType": "ServiceRequest",
				"id": "f1471fc2-974f-11ed-a8fc-0242ac120002",
				"meta": {
					"lastUpdated": "2023-01-01T10:36:03Z",
					"profile": [
						"https://fhir.siss.regione.lombardia.it/StructureDefinition/RLServiceRequestPrestazioniSpecialistiche"
					],
					"versionId": "1"
				},
				"basedOn": [
					{
						"reference": "CarePlan/365db2ec-973c-11ed-a8fc-0242ac120002",
						"display": "CarePlan Progetto Individuale"
					}
				],
				"requisition": {
					"value": "A13848392"
				},
				"status": "active",
				"intent": "order",
				"code": {
					"coding": [
						{
							"system": "https://fhir.siss.regione.lombardia.it/ValueSet/DDC-PrestSpecSISS",
							"code": "0090042",
							"display": "ADRENALINA - NORADRENALINA [P]"
						}
					]
				},
				"subject": {
					"reference": "Patient/b7807e00-9745-11ed-a8fc-0242ac120002",
					"display": "Mario Rossi"
				},
				"occurrencePeriod": {
					"start": "2022-01-01",
					"end": "2023-02-01"
				},
				"note": [
					{
						"text": "Commenti aggiuntivi"
					}
				],
				"extension": [
					{
						"url": "https://fhir.siss.regione.lombardia.it/StructureDefinition/RLServiceRequestUlterioriDettagli",
						"extension": [
							{
								"url": "erogabileTelemedicina",
								"valueBoolean": true
							},
							{
								"url": "prenotabileStrutturaProssimita",
								"valueBoolean": false
							},
							{
								"url": "prescrizioneElettronica",
								"valueBoolean": true
							}
						]
					}
				]
			}
		},
		{
			"fullUrl": "MedicationRequest/fd5e5398-974f-11ed-a8fc-0242ac120002",
			"resource": {
				"resourceType": "MedicationRequest",
				"id": "fd5e5398-974f-11ed-a8fc-0242ac120002",
				"meta": {
					"lastUpdated": "2023-01-01T10:36:03Z",
					"profile": [
						"https://fhir.siss.regione.lombardia.it/StructureDefinition/RLMedicationRequestOssigenoterapia"
					],
					"versionId": "1"
				},
				"status": "active",
				"intent": "order",
				"medicationCodeableConcept": {
					"coding": [
						{
							"system": "https://fhir.siss.regione.lombardia.it/ValueSet/SGDT-TipologiaOssigeno",
							"code": "OT1",
							"display": "Ossigeno gassoso"
						}
					]
				},
				"subject": {
					"reference": "Patient/b7807e00-9745-11ed-a8fc-0242ac120002",
					"display": "Mario Rossi"
				},
				"basedOn": {
					"reference": "CarePlan/365db2ec-973c-11ed-a8fc-0242ac120002",
					"display": "Progetto individuale"
				},
				"note": [
					{
						"text": "Commenti aggiuntivi"
					}
				],
				"dosageInstruction": [
					{
						"timing": {
							"repeat": {
								"boundsPeriod": {
									"start": "2022-01-01",
									"end": "2023-02-01"
								}
							}
						},
						"doseAndRate": [
							{
								"doseQuantity": {
									"value": 2,
									"unit": "%FiO2"
								}
							},
							{
								"rateQuantity": {
									"value": 2,
									"unit": "L/min"
								}
							}
						]
					}
				],
				"extension": [
					{
						"url": "https://fhir.siss.regione.lombardia.it/StructureDefinition/RLMedicationRequestOssigenoADomicilio",
						"valueBoolean": true
					}
				]
			}
		},
		{
			"fullUrl": "MedicationRequest/088c489c-9750-11ed-a8fc-0242ac120002",
			"resource": {
				"resourceType": "MedicationRequest",
				"id": "088c489c-9750-11ed-a8fc-0242ac120002",
				"meta": {
					"lastUpdated": "2023-01-01T10:36:03Z",
					"profile": [
						"https://fhir.siss.regione.lombardia.it/StructureDefinition/RLMedicationRequestTerapiaFarmacologica"
					],
					"versionId": "1"
				},
				"status": "active",
				"intent": "order",
				"medicationCodeableConcept": {
					"coding": [
						{
							"system": "https://fhir.siss.regione.lombardia.it/ValueSet/DDC-Farmaco",
							"code": "027224031",
							"display": "CLEVIAN*GEL 50 G 1%"
						}
					]
				},
				"subject": {
					"reference": "Patient/b7807e00-9745-11ed-a8fc-0242ac120002",
					"display": "Mario Rossi"
				},
				"basedOn": {
					"reference": "CarePlan/365db2ec-973c-11ed-a8fc-0242ac120002",
					"display": "Progetto individuale"
				},
				"note": [
					{
						"text": "Commenti aggiuntivi"
					}
				],
				"dosageInstruction": [
					{
						"timing": {
							"repeat": {
								"boundsPeriod": {
									"start": "2022-01-01",
									"end": "2023-02-01"
								},
								"frequency": 1,
								"period": 1,
								"periodUnit": "d"
							}
						},
						"route": {
							"coding": [
								{
									"system": "http://snomed.info/sct",
									"code": "26643006",
									"display": "Oral Route"
								}
							]
						},
						"doseAndRate": [
							{
								"doseQuantity": {
									"value": 2,
									"unit": "TAB",
									"system": "http://terminology.hl7.org/CodeSystem/v3-orderableDrugForm"
								}
							}
						]
					}
				],
				"extension": [
					{
						"url": "https://fhir.siss.regione.lombardia.it/StructureDefinition/RLMedicationRequestConsegnaPaziente",
						"valueBoolean": true
					}
				]
			}
		},
		{
			"fullUrl": "ServiceRequest/14aec1c2-9750-11ed-a8fc-0242ac120002",
			"resource": {
				"resourceType": "ServiceRequest",
				"id": "14aec1c2-9750-11ed-a8fc-0242ac120002",
				"meta": {
					"lastUpdated": "2023-01-01T10:36:03Z",
					"profile": [
						"https://fhir.siss.regione.lombardia.it/StructureDefinition/RLServiceRequestServiziSocioAssistenziali"
					],
					"versionId": "1"
				},
				"identifier": [
					{
						"value": "000021"
					}
				],
				"basedOn": [
					{
						"reference": "CarePlan/365db2ec-973c-11ed-a8fc-0242ac120002",
						"display": "CarePlan Progetto Individuale"
					}
				],
				"status": "active",
				"intent": "order",
				"code": {
					"coding": [
						{
							"system": "https://fhir.siss.regione.lombardia.it/ValueSet/DDC-DescL2",
							"code": "ADI",
							"display": "ASSISTENZA DOMICILIARE INTEGRATA"
						}
					]
				},
				"quantityQuantity": {
					"value": 1
				},
				"subject": {
					"reference": "Patient/b7807e00-9745-11ed-a8fc-0242ac120002",
					"display": "Mario Rossi"
				},
				"occurrencePeriod": {
					"start": "2022-01-01",
					"end": "2023-02-01"
				},
				"performer": {
					"reference": "Organization/56a3e16e-97e3-11ed-a8fc-0242ac120002",
					"display": "Presidio Ospedaliero di Vimercate"
				},
				"reasonCode": [
					{
						"coding": [
							{
								"system": "https://fhir.siss.regione.lombardia.it/ValueSet/SGDT-PercorsiCDom",
								"code": "PERCDOM02",
								"display": "Cure Domiciliari Base - Prestazionale Generico"
							}
						]
					}
				],
				"note": [
					{
						"text": "Commenti aggiuntivi"
					}
				],
				"extension": [
					{
						"url": "https://fhir.siss.regione.lombardia.it/StructureDefinition/RLServiceRequestDettagliAttivazione",
						"extension": [
							{
								"url": "strutturaTerritorialeProssimita",
								"valueBoolean": true
							},
							{
								"url": "consultazioneCatalogoOfferta",
								"valueBoolean": false
							}
						]
					},
					{
						"url": "https://fhir.siss.regione.lombardia.it/StructureDefinition/RLServiceRequestSoggettoProponentePIC",
						"valueCodeableConcept": {
							"coding": [
								{
									"system": "https://fhir.siss.regione.lombardia.it/ValueSet/SIAD-ProponentePIC",
									"code": "2",
									"display": "MMG / PLS"
								}
							]
						}
					},
					{
						"url": "https://fhir.siss.regione.lombardia.it/StructureDefinition/RLServiceRequestCausaleDimissione",
						"valueCodeableConcept": {
							"coding": [
								{
									"system": "https://fhir.siss.regione.lombardia.it/ValueSet/SIAD-CausaleDimissione",
									"code": "99",
									"display": "Altro"
								}
							]
						}
					},
					{
						"url": "https://fhir.siss.regione.lombardia.it/StructureDefinition/RLServiceRequestDataDimissione",
						"valueDateTime": "2022-01-01"
					}
				]
			}
		},
		{
			"fullUrl": "ServiceRequest/22a7ca4e-9750-11ed-a8fc-0242ac120002",
			"resource": {
				"resourceType": "ServiceRequest",
				"id": "22a7ca4e-9750-11ed-a8fc-0242ac120002",
				"meta": {
					"lastUpdated": "2023-01-01T10:36:03Z",
					"profile": [
						"https://fhir.siss.regione.lombardia.it/StructureDefinition/RLServiceRequestInterventoEducazionale"
					],
					"versionId": "1"
				},
				"basedOn": [
					{
						"reference": "CarePlan/365db2ec-973c-11ed-a8fc-0242ac120002",
						"display": "CarePlan Progetto Individuale"
					}
				],
				"status": "active",
				"intent": "order",
				"code": {
					"coding": [
						{
							"system": "https://fhir.siss.regione.lombardia.it/ValueSet/SGDT-InterventiEducazionali",
							"code": "EDU05",
							"display": "Nutrizionale di gruppo"
						}
					]
				},
				"subject": {
					"reference": "Patient/b7807e00-9745-11ed-a8fc-0242ac120002",
					"display": "Mario Rossi"
				},
				"occurrencePeriod": {
					"start": "2022-01-01",
					"end": "2023-02-01"
				},
				"locationCode": [
					{
						"coding": [
							{
								"system": "https://fhir.siss.regione.lombardia.it/ValueSet/SGDT-ModalitaErogazioneIntEdu",
								"code": "INTEDU1",
								"display": "Intervento erogabile in presenza"
							}
						]
					}
				],
				"note": [
					{
						"text": "Commenti aggiuntivi"
					}
				]
			}
		},
		{
			"fullUrl": "DeviceRequest/2c9f4810-9750-11ed-a8fc-0242ac120002",
			"resource": {
				"resourceType": "DeviceRequest",
				"id": "2c9f4810-9750-11ed-a8fc-0242ac120002",
				"meta": {
					"lastUpdated": "2023-01-01T10:36:03Z",
					"profile": [
						"https://fhir.siss.regione.lombardia.it/StructureDefinition/RLDeviceRequestProtesiAusili"
					],
					"versionId": "1"
				},
				"basedOn": [
					{
						"reference": "CarePlan/365db2ec-973c-11ed-a8fc-0242ac120002",
						"display": "Piano Individuale"
					}
				],
				"status": "active",
				"intent": "order",
				"codeCodeableConcept": {
					"coding": [
						{
							"system": "https://fhir.siss.regione.lombardia.it/ValueSet/DDC-AusilioProtesi",
							"code": "122406178",
							"display": "AGGIUNTIVI: BRACCIOLO RIBALTABILE"
						}
					]
				},
				"subject": {
					"reference": "Patient/b7807e00-9745-11ed-a8fc-0242ac120002"
				},
				"occurrencePeriod": {
					"start": "2022-01-01",
					"end": "2023-02-01"
				},
				"note": [
					{
						"text": "Commenti aggiuntivi"
					}
				],
				"extension": [
					{
						"url": "https://example.org/fhir/StructureDefinition/RLDeviceRequestPrescrizioneElettronica",
						"valueBoolean": true
					}
				]
			}
		},
		{
			"fullUrl": "ServiceRequest/9f9d22e4-9cbc-11ed-a8fc-0242ac120002",
			"resource": {
				"resourceType": "ServiceRequest",
				"id": "9f9d22e4-9cbc-11ed-a8fc-0242ac120002",
				"meta": {
					"lastUpdated": "2023-01-01T10:36:03Z",
					"profile": [
						"https://fhir.siss.regione.lombardia.it/StructureDefinition/RLServiceRequestPrestazioniInfermieristiche"
					],
					"versionId": "1"
				},
				"basedOn": [
					{
						"reference": "CarePlan/365db2ec-973c-11ed-a8fc-0242ac120002",
						"display": "CarePlan Progetto Individuale"
					}
				],
				"status": "active",
				"intent": "order",
				"code": {
					"coding": [
						{
							"system": "https://fhir.siss.regione.lombardia.it/ValueSet/SGDT-PrestazioniInfermieristiche",
							"code": "[ADI]_001",
							"display": "Accessi domiciliari"
						}
					]
				},
				"subject": {
					"reference": "Patient/b7807e00-9745-11ed-a8fc-0242ac120002",
					"display": "Mario Rossi"
				},
				"occurrenceTiming": {
					"repeat": {
						"boundsPeriod": {
							"start": "2022-01-01",
							"end": "2023-02-01"
						},
						"frequency": 1,
						"period": 1,
						"periodUnit": "d"
					}
				},
				"reasonReference": {
					"reference": "Condition/3d38668c-9cc0-11ed-a8fc-0242ac120002",
					"display": "Problema infermieristico "
				},
				"note": [
					{
						"text": "Commenti aggiuntivi"
					}
				]
			}
		},
		{
			"fullUrl": "Encounter/c559333c-974f-11ed-a8fc-0242ac120002",
			"resource": {
				"resourceType": "Encounter",
				"id": "c559333c-974f-11ed-a8fc-0242ac120002",
				"meta": {
					"lastUpdated": "2023-01-01T10:36:03Z",
					"profile": [
						"https://fhir.siss.regione.lombardia.it/StructureDefinition/RLEncounterAccesso"
					],
					"versionId": "1"
				},
				"identifier": [
					{
						"value": "2023000000001"
					}
				],
				"status": "in-progress",
				"class": {
					"system": "https://fhir.siss.regione.lombardia.it/ValueSet/SGDT-TipologiaAccesso",
					"code": "01",
					"display": "Amministrativo"
				},
				"subject": {
					"reference": "Patient/e06086d8-a958-11ed-afa1-0242ac120002",
					"display": "Mario Rossi"
				},
				"period": {
					"start": "2023-01-01T10:36:03Z"
				},
				"reasonCode": [
					{
						"coding": [
							{
								"system": "https://fhir.siss.regione.lombardia.it/ValueSet/SGDT-MotivoSegnalazione",
								"code": "01",
								"display": "Accesso Spontaneo"
							}
						]
					}
				],
				"serviceProvider": {
					"reference": "Organization/e5002d24-a958-11ed-afa1-0242ac120002",
					"display": "ASST DELLA BRIANZA"
				}
			}
		},
		{
			"fullUrl": "Organization/c8f77b34-974f-11ed-a8fc-0242ac120002",
			"resource": {
				"resourceType": "Organization",
				"id": "c8f77b34-974f-11ed-a8fc-0242ac120002",
				"meta": {
					"lastUpdated": "2022-03-30T10:36:03.000+00:00",
					"profile": [
						"https://fhir.siss.regione.lombardia.it/StructureDefinition/RLOrganizationL1"
					]
				},
				"identifier": [
					{
						"system": "https://fhir.siss.regione.lombardia.it/CodeSystem/CodiceStruttura",
						"value": "030717"
					},
					{
						"system": "http://hl7.it/sid/codiceFiscale",
						"value": "09314320962"
					}
				],
				"type": [
					{
						"coding": [
							{
								"system": "https://fhir.siss.regione.lombardia.it/CodeSystem/TipoStruttura",
								"code": "AO"
							}
						]
					}
				],
				"name": "ASST DELLA BRIANZA",
				"telecom": [
					{
						"system": "phone",
						"value": "039 66541"
					},
					{
						"system": "email",
						"value": "protocollo@pec.asst-brianza.it"
					},
					{
						"system": "fax",
						"value": "039 66541"
					},
					{
						"system": "url",
						"value": "https://www.asst-brianza.it/web/"
					}
				],
				"address": [
					{
						"use": "work",
						"type": "physical",
						"line": [
							"Via Santi Cosma e Damiano, 10"
						],
						"district": "MB",
						"state": "LOMBARDIA",
						"postalCode": "20871",
						"extension": [
							{
								"url": "https://fhir.siss.regione.lombardia.it/StructureDefinition/RLOrganizationAddressIstatCode",
								"valueString": "108050"
							},
							{
								"url": "https://fhir.siss.regione.lombardia.it/StructureDefinition/RLOrganizationAddressDistrettoCode",
								"valueCodeableConcept": {
									"coding": [
										{
											"system": "https://fhir.siss.regione.lombardia.it/CodeSystem/CodiceDistretto",
											"code": "codice_distretto"
										}
									]
								}
							}
						]
					}
				],
				"extension": [
					{
						"url": "https://fhir.siss.regione.lombardia.it/StructureDefinition/RLOrganizationDataCostituzione",
						"valueDate": "2016-01-01"
					},
					{
						"url": "https://fhir.siss.regione.lombardia.it/StructureDefinition/RLOrganizationDataCessazione",
						"valueDate": "2099-02-11"
					},
					{
						"url": "https://fhir.siss.regione.lombardia.it/StructureDefinition/RLOrganizationDataInsert",
						"valueDate": "2016-02-11"
					},
					{
						"url": "https://fhir.siss.regione.lombardia.it/StructureDefinition/RLOrganizationDataUpdate",
						"valueDate": "2021-01-27"
					},
					{
						"url": "https://fhir.siss.regione.lombardia.it/StructureDefinition/RLOrganizationDataInizioValidita",
						"valueDate": "2015-01-27"
					},
					{
						"url": "https://fhir.siss.regione.lombardia.it/StructureDefinition/RLOrganizationDataFineValidita",
						"valueDate": "2035-01-14"
					}
				]
			}
		},
		{
			"fullUrl": "PractitionerRole/d711fc58-974f-11ed-a8fc-0242ac120002",
			"resource": {
				"resourceType": "PractitionerRole",
				"id": "d711fc58-974f-11ed-a8fc-0242ac120002",
				"meta": {
					"lastUpdated": "2023-01-01T10:36:03Z",
					"profile": [
						"https://fhir.siss.regione.lombardia.it/StructureDefinition/RLPractitionerRoleProfessionistaSanitario"
					],
					"versionId": "1"
				},
				"period": {
					"start": "2012-01-01",
					"end": "2023-03-31"
				},
				"practitioner": {
					"reference": "Practitioner/3a14db34-a959-11ed-afa1-0242ac120002",
					"display": "Dr Luca Verdi"
				},
				"organization": {
					"reference": "Organization/52b1a05a-a959-11ed-afa1-0242ac120002",
					"display": "ASST DELLA BRIANZA"
				},
				"code": [
					{
						"coding": [
							{
								"system": "https://fhir.siss.regione.lombardia.it/ValueSet/SGDT-QualificaProfessionistaSanitario",
								"code": "PROFSAN04",
								"display": "Medico di Medicina Generale"
							}
						]
					}
				]
			}
		},
		{
			"fullUrl": "Condition/e243606c-974f-11ed-a8fc-0242ac120002",
			"resource": {
				"resourceType": "Condition",
				"id": "e243606c-974f-11ed-a8fc-0242ac120002",
				"meta": {
					"lastUpdated": "2023-01-01T10:36:03Z",
					"profile": [
						"https://fhir.siss.regione.lombardia.it/StructureDefinition/RLConditionPatologiaPrimariaSecondariaUlteriore"
					],
					"versionId": "1"
				},
				"category": [
					{
						"coding": [
							{
								"system": "https://fhir.siss.regione.lombardia.it/ValueSet/SGDT-TipologiaPatologia",
								"code": "1",
								"display": "Patologia primaria"
							}
						]
					}
				],
				"code": {
					"coding": [
						{
							"system": "TBD",
							"code": "TBD",
							"display": "TBD"
						}
					]
				},
				"subject": {
					"reference": "Patient/b7807e00-9745-11ed-a8fc-0242ac120002",
					"display": "Mario Rossi"
				},
				"recordedDate": "2022-05-24"
			}
		},
		{
			"fullUrl": "Observation/bnm18194-974f-11ed-a8fc-0242ac120002",
			"resource": {
				"resourceType": "Observation",
				"id": "bnm18194-974f-11ed-a8fc-0242ac120002",
				"meta": {
					"lastUpdated": "2023-01-01T10:36:03Z",
					"profile": [
						"https://fhir.siss.regione.lombardia.it/StructureDefinition/RLObservationEsitoValutazione"
					],
					"versionId": "1"
				},
				"status": "registered",
				"code": {
					"coding": [
						{
							"system": "https://fhir.siss.regione.lombardia.it/ValueSet/SGDT-Valutazione",
							"code": "VAL1",
							"display": "Scheda Triage"
						}
					]
				},
				"subject": {
					"reference": "Patient/c2079ade-989e-11ed-a8fc-0242ac120002",
					"display": "Mario Rossi"
				},
				"effectiveDateTime": "2023-04-03T15:30:10Z",
				"performer": [
					{
						"reference": "PractitionerRole/d252b662-989e-11ed-a8fc-0242ac120002",
						"display": "Medico Prescrittore"
					}
				],
				"valueInteger": 5,
				"derivedFrom": [
					{
						"reference": "QuestionnaireResponse/d3541270-9814-11ed-a8fc-0242ac120002",
						"display": "Valutazione"
					}
				]
			}
		},
		{
			"fullUrl": "Goal/eaa18194-974f-11ed-a8fc-0242ac120002",
			"resource": {
				"resourceType": "Goal",
				"id": "eaa18194-974f-11ed-a8fc-0242ac120002",
				"meta": {
					"lastUpdated": "2023-01-01T10:36:03Z",
					"profile": [
						"https://fhir.siss.regione.lombardia.it/StructureDefinition/RLGoalObiettiviSalute"
					],
					"versionId": "1"
				},
				"lifecycleStatus": "planned",
				"description": {
					"coding": [
						{
							"system": "https://fhir.siss.regione.lombardia.it/ValueSet/SGDT-ObiettiviSalute",
							"code": "01",
							"display": "Controllo episodi di riacutizzazione"
						}
					]
				},
				"subject": {
					"reference": "Patient/b7807e00-9745-11ed-a8fc-0242ac120002",
					"display": "Mario Rossi"
				}
			}
		},
		{
			"fullUrl": "Encounter/70eb0e00-ae07-11ed-afa1-0242ac120002",
			"resource": {
				"resourceType": "Encounter",
				"id": "70eb0e00-ae07-11ed-afa1-0242ac120002",
				"meta": {
					"lastUpdated": "2023-01-01T10:36:03Z",
					"profile": [
						"https://fhir.siss.regione.lombardia.it/StructureDefinition/RLEncounterAccesso"
					],
					"versionId": "1"
				},
				"identifier": [
					{
						"value": "2023000000001"
					}
				],
				"status": "in-progress",
				"class": {
					"system": "https://fhir.siss.regione.lombardia.it/ValueSet/SGDT-TipologiaAccesso",
					"code": "02",
					"display": "Dimissione Protetta"
				},
				"subject": {
					"reference": "Patient/e06086d8-a958-11ed-afa1-0242ac120002",
					"display": "Mario Rossi"
				},
				"period": {
					"start": "2022-01-01T10:36:03Z"
				},
				"reasonCode": [
					{
						"coding": [
							{
								"system": "https://fhir.siss.regione.lombardia.it/ValueSet/SGDT-MotivoSegnalazione",
								"code": "02",
								"display": "Dimissione Protetta"
							}
						]
					}
				],
				"serviceProvider": {
					"reference": "Organization/e5002d24-a958-11ed-afa1-0242ac120002",
					"display": "ASST DELLA BRIANZA"
				}
			}
		}
	]
}